# Output from writeprf.pro
       0
       8      0.00000     100       6      2.61200
          39           0
          40           0
           6           0
          26           0
          27           0
          32           0
  height (km)  press (atm)   temp (K)    VMR gas  1   VMR gas  2   VMR gas  3
     -84.2750      9.87170      170.760     0.830000     0.150000    0.0220000
     -70.9120      8.19560      155.940     0.830000     0.150000    0.0220000
     -59.8190      6.80420      143.637     0.830000     0.150000    0.0220000
     -50.6080      5.64890      133.418     0.830000     0.150000    0.0220000
     -42.9620      4.68980      124.938     0.830000     0.150000    0.0220000
     -36.6140      3.89360      117.900     0.830000     0.150000    0.0220000
     -30.6960      3.23250      111.230     0.830000     0.150000    0.0220000
     -25.2550      2.68370      105.029     0.830000     0.150000    0.0220000
     -19.9340      2.22810      98.2053     0.830000     0.150000    0.0220000
     -15.2590      1.84980      92.0033     0.830000     0.150000    0.0220000
     -10.3330      1.53570      84.8627     0.830000     0.150000    0.0187400
     -5.95000      1.27500      78.7215     0.830000     0.150000    0.0147130
     -1.53200      1.05850      73.3038     0.830000     0.150000   0.00756370
      2.44100     0.878790      68.7798     0.830000     0.150000   0.00293560
      6.30600     0.729590      64.9751     0.830000     0.150000   0.00151400
      9.94700     0.605720      62.2557     0.830000     0.150000  0.000757360
      13.3710     0.502880      60.4061     0.830000     0.150000  0.000522410
      16.9000     0.417500      58.4711     0.830000     0.150000  0.000359130
      19.9910     0.346610      56.7701     0.830000     0.150000  0.000231060
      23.3800     0.287760      56.1697     0.830000     0.150000  0.000227990
      26.5810     0.238910      55.7511     0.830000     0.150000  0.000237640
      29.6710     0.198340      55.4907     0.830000     0.150000  0.000259010
      32.9690     0.164670      55.1176     0.830000     0.150000  0.000274890
      36.0640     0.136710      54.7555     0.830000     0.150000  0.000301500
      39.1990     0.113500      54.5660     0.830000     0.150000  0.000352500
      42.4260    0.0942300      54.5404     0.830000     0.150000  0.000460910
      45.4550    0.0782310      54.6757     0.830000     0.150000  0.000609350
      48.7440    0.0649490      55.1835     0.830000     0.150000  0.000950580
      52.0030    0.0539220      55.8772     0.830000     0.150000   0.00124960
      55.1130    0.0447670      56.5960     0.830000     0.150000   0.00150200
      58.5880    0.0371660      57.3800     0.830000     0.150000   0.00149880
      62.0390    0.0308560      58.2416     0.830000     0.150000   0.00149560
      65.3530    0.0256170      59.1233     0.830000     0.150000   0.00149260
      69.0000    0.0212680      60.2800     0.830000     0.150000   0.00148900
      72.3660    0.0176570      61.4606     0.830000     0.150000   0.00148560
      76.2110    0.0146590      63.5798     0.830000     0.150000   0.00148190
      79.9970    0.0121700      65.9411     0.830000     0.150000   0.00147820
      83.7700    0.0101040      68.5400     0.830000     0.150000   0.00147450
      88.2140   0.00838850      72.9992     0.830000     0.150000   0.00146970
      92.5200   0.00696430      78.0263     0.830000     0.150000   0.00146490
      97.3310   0.00578190      85.5365     0.830000     0.150000   0.00145920
      102.630   0.00480020      91.6170     0.830000     0.150000   0.00145230
      107.806   0.00398520      97.7790     0.830000     0.150000   0.00144540
      114.216   0.00330860      103.880     0.830000     0.150000   0.00143650
      120.405   0.00274690      109.603     0.830000     0.150000   0.00142750
      127.061   0.00228050      115.243     0.830000     0.150000   0.00141750
      134.196   0.00189330      120.789     0.830000     0.150000   0.00140640
      140.843   0.00157180      125.963     0.830000     0.150000   0.00139600
      148.816   0.00130500      130.872     0.830000     0.150000   0.00138310
      156.164   0.00108340      135.563     0.830000     0.150000   0.00137100
      164.195  0.000899470      140.122     0.830000     0.150000   0.00135760
      172.476  0.000746760      144.425     0.830000     0.150000   0.00134350
      180.323  0.000619970      148.063     0.830000     0.150000   0.00133010
      189.339  0.000514710      151.038     0.830000     0.150000   0.00131420
      197.527  0.000427320      153.328     0.830000     0.150000   0.00129980
      206.716  0.000354770      155.010     0.830000     0.150000   0.00128400
      215.747  0.000294540      156.233     0.830000     0.150000   0.00126830
      224.735  0.000244530      156.982     0.830000     0.150000   0.00125250
      234.347  0.000203010      157.391     0.830000     0.150000   0.00123550
      243.150  0.000168540      157.907     0.830000     0.150000   0.00121990
      253.419  0.000139930      158.496     0.830000     0.150000   0.00120190
      262.733  0.000116170      158.965     0.830000     0.150000   0.00118540
      272.682  9.64470e-05      159.532     0.830000     0.150000   0.00116730
      282.496  8.00720e-05      160.040     0.830000     0.150000   0.00114830
      292.058  6.64770e-05      160.407     0.830000     0.150000   0.00112890
      302.325  5.51910e-05      160.574     0.830000     0.150000   0.00110520
      311.657  4.58200e-05      160.491     0.830000     0.150000   0.00108280
      322.167  3.80410e-05      160.130     0.830000     0.150000   0.00105320
      331.983  3.15820e-05      159.575     0.830000     0.150000   0.00102410
      341.957  2.62200e-05      158.888     0.830000     0.150000  0.000992070
      352.207  2.17680e-05      158.088     0.830000     0.150000  0.000955940
      361.667  1.80720e-05      157.197     0.830000     0.150000  0.000921330
      372.406  1.50040e-05      156.246     0.830000     0.150000  0.000877210
      382.001  1.24570e-05      155.263     0.830000     0.150000  0.000836800
      392.503  1.03420e-05      154.292     0.830000     0.150000  0.000789060
      402.492  8.58590e-06      153.372     0.830000     0.150000  0.000741730
      412.586  7.12810e-06      152.510     0.830000     0.150000  0.000691550
      422.928  5.91790e-06      151.713     0.830000     0.150000  0.000638070
      432.634  4.91320e-06      150.958     0.830000     0.150000  0.000586920
      443.332  4.07900e-06      150.253     0.830000     0.150000  0.000529100
      452.920  3.38640e-06      149.764     0.830000     0.150000  0.000477160
      463.709  2.81150e-06      149.288     0.830000     0.150000  0.000419400
      473.712  2.33410e-06      148.752     0.830000     0.150000  0.000367020
      484.067  1.93780e-06      148.305     0.830000     0.150000  0.000314870
      494.472  1.60880e-06      147.926     0.830000     0.150000  0.000266210
      504.376  1.33570e-06      147.590     0.830000     0.150000  0.000222050
      515.184  1.10890e-06      147.291     0.830000     0.150000  0.000180820
      524.951  9.20630e-07      147.027     0.830000     0.150000  0.000145430
      535.895  7.64330e-07      146.792     0.830000     0.150000  0.000113760
      546.147  6.34560e-07      146.585     0.830000     0.150000  8.73640e-05
      556.644  5.26820e-07      146.400     0.830000     0.150000  6.52640e-05
      567.475  4.37380e-07      146.237     0.830000     0.150000  4.75830e-05
      577.567  3.63120e-07      146.094     0.830000     0.150000  3.32510e-05
      589.199  3.01470e-07      145.967     0.830000     0.150000  2.29390e-05
      599.857  2.50280e-07      145.854     0.830000     0.150000  1.48500e-05
      611.461  2.07790e-07      145.754     0.830000     0.150000  9.42710e-06
      623.257  1.72510e-07      145.667     0.830000     0.150000  5.69250e-06
      634.649  1.43220e-07      145.589     0.830000     0.150000  3.15990e-06
      647.733  1.18900e-07      145.520     0.830000     0.150000  1.80330e-06
      660.056  9.87170e-08      145.460     0.830000     0.150000  8.76260e-07
 Extra VMRs
  6.50070e-12  4.04120e-10  6.39070e-13
  4.63110e-11  1.74074e-09  1.14480e-12
  7.93620e-11  2.85036e-09  1.56460e-12
  1.06800e-10  3.77169e-09  1.91320e-12
  1.29580e-10  4.53652e-09  2.20260e-12
  1.48500e-10  5.17150e-09  2.44280e-12
  1.72640e-10  5.84354e-09  2.35750e-12
  1.99580e-10  6.51989e-09  2.05400e-12
  2.37100e-10  7.30015e-09  1.61130e-12
  2.73090e-10  8.01777e-09  1.18280e-12
  3.05870e-10  8.91584e-09  6.33260e-13
  2.87480e-10  9.51670e-09  2.32590e-13
  1.17590e-10  9.46644e-09  1.26640e-13
  1.60800e-11  7.75608e-09  5.55250e-14
  5.02260e-12  3.24586e-09  2.76720e-14
  1.23670e-13  9.20475e-10  1.15690e-14
  3.03790e-14  3.07207e-10  4.71600e-15
  7.16720e-15  1.10680e-10  2.10180e-15
  6.90360e-16  2.12491e-11  6.56740e-16
  4.35920e-16  1.51330e-11  3.01430e-16
  3.00500e-16  1.17448e-11  9.95790e-17
  2.56760e-16  1.06112e-11  3.39880e-17
  2.01180e-16  8.96574e-12  1.58100e-17
  1.70000e-16  8.12179e-12  9.52810e-18
  1.80810e-16  8.70897e-12  1.35940e-17
  2.65360e-16  1.18851e-11  3.88560e-17
  4.43730e-16  1.77066e-11  8.34670e-17
  1.10550e-15  3.65691e-11  2.20110e-16
  3.48390e-15  8.75432e-11  5.46990e-16
  7.16840e-15  1.60587e-10  1.00540e-15
  2.27100e-14  3.93695e-10  2.46780e-15
  8.28390e-14  1.03251e-09  5.95050e-15
  1.70330e-13  1.91711e-09  1.06460e-14
  8.68940e-13  6.32308e-09  2.96200e-14
  3.69320e-12  1.48385e-08  5.75100e-14
  2.62050e-11  5.98320e-08  1.60860e-13
  3.52870e-10  1.19938e-07  4.25950e-13
  9.50110e-10  1.93931e-07  8.35850e-13
  7.85610e-09  2.34230e-07  2.52500e-12
  1.32030e-08  2.67680e-07  4.95250e-12
  1.57520e-08  2.98710e-07  9.15450e-12
  1.80830e-08  3.35374e-07  1.34600e-11
  2.01460e-08  3.72307e-07  1.75200e-11
  2.30250e-08  4.22738e-07  2.06510e-11
  2.59220e-08  4.72995e-07  2.31690e-11
  2.92200e-08  5.29457e-07  2.51220e-11
  3.29230e-08  5.91717e-07  2.75860e-11
  3.64290e-08  6.50306e-07  3.00100e-11
  4.08660e-08  7.22968e-07  3.73330e-11
  4.50280e-08  7.90533e-07  4.43040e-11
  4.97540e-08  8.65778e-07  5.22870e-11
  5.47390e-08  9.43932e-07  5.94410e-11
  5.95170e-08  1.01827e-06  6.56980e-11
  6.51580e-08  1.10388e-06  7.18930e-11
  7.03230e-08  1.18161e-06  7.70650e-11
  7.62730e-08  1.26915e-06  8.09990e-11
  8.21310e-08  1.35459e-06  8.26180e-11
  8.79710e-08  1.43932e-06  8.22100e-11
  9.42130e-08  1.52885e-06  7.44620e-11
  9.99260e-08  1.61043e-06  6.52230e-11
  1.06470e-07  1.70404e-06  4.91540e-11
  1.12390e-07  1.78901e-06  3.63460e-11
  1.18710e-07  1.88029e-06  2.72120e-11
  1.25220e-07  1.97519e-06  2.11250e-11
  1.31780e-07  2.07127e-06  1.74320e-11
  1.39510e-07  2.18650e-06  1.55340e-11
  1.46750e-07  2.29485e-06  1.43550e-11
  1.55680e-07  2.43124e-06  1.46130e-11
  1.64280e-07  2.56378e-06  1.56360e-11
  1.73400e-07  2.70613e-06  1.78390e-11
  1.83170e-07  2.86029e-06  2.23900e-11
  1.92330e-07  3.00545e-06  2.74810e-11
  2.03070e-07  3.17936e-06  3.94330e-11
  2.12660e-07  3.33527e-06  5.52930e-11
  2.23070e-07  3.50743e-06  9.34400e-11
  2.32750e-07  3.66884e-06  2.31970e-10
  2.42250e-07  3.82907e-06  4.98370e-10
  2.51110e-07  3.98276e-06  2.04310e-09
  2.59030e-07  4.12231e-06  4.08110e-09
  2.65400e-07  4.23907e-06  1.39570e-08
  2.70350e-07  4.32836e-06  2.53970e-08
  2.71160e-07  4.31738e-06  5.50820e-08
  2.68750e-07  4.22598e-06  8.79640e-08
  2.60710e-07  3.98884e-06  1.31410e-07
  2.45340e-07  3.60128e-06  1.70080e-07
  2.26490e-07  3.14582e-06  2.04010e-07
  1.97730e-07  2.55793e-06  2.13190e-07
  1.70180e-07  2.01820e-06  2.14090e-07
  1.36820e-07  1.47543e-06  1.84430e-07
  1.07450e-07  1.03158e-06  1.52100e-07
  8.02170e-08  6.74336e-07  1.12120e-07
  5.77950e-08  4.19618e-07  7.68250e-08
  3.92780e-08  2.29917e-07  4.64260e-08
  2.60410e-08  1.30152e-07  2.71690e-08
  1.57170e-08  5.86843e-08  1.30000e-08
  8.98710e-09  2.76422e-08  6.23800e-09
  4.57260e-09  1.08167e-08  2.51410e-09
  1.77540e-09  3.46547e-09  8.20530e-10
  7.48930e-10  1.32046e-09  3.19920e-10
  1.76440e-10  2.76305e-10  7.31830e-11
