# Output from writeprf.pro
       0
       8      0.00000          93       2      2.26000
      39       0
      40       0
  height (km)  press (atm)   temp (K)    VMR gas  1   VMR gas  2   VMR gas  3
     -45.0000      4.94547      127.200     0.830000     0.150000
     -34.0000      3.56575      115.000     0.830000     0.150000
     -24.0000      2.55712      103.600     0.830000     0.150000
     -15.0000      1.82877      91.6600     0.830000     0.150000
     -7.00000      1.32642      80.0100     0.830000     0.150000
      1.00000     0.934419      70.2000     0.830000     0.150000
      8.00000     0.664199      63.3100     0.830000     0.150000
      14.0000     0.483987      60.0700     0.830000     0.150000
      20.0000     0.346410      56.7700     0.830000     0.150000
      25.0000     0.259660      55.8900     0.830000     0.150000
      30.0000     0.194029      55.4700     0.830000     0.150000
      35.0000     0.144584      54.8900     0.830000     0.150000
      40.0000     0.107575      54.7700     0.830000     0.150000
      45.0000    0.0800691      55.1400     0.830000     0.150000
      50.0000    0.0598766      56.1600     0.830000     0.150000
      55.0000    0.0450136      57.4500     0.830000     0.150000
      60.0000    0.0340785      58.7000     0.830000     0.150000
      66.0000    0.0245941      60.4500     0.830000     0.150000
      72.0000    0.0179423      62.5500     0.830000     0.150000
      78.0000    0.0132642      65.9700     0.830000     0.150000
      84.0000   0.00997779      70.2000     0.830000     0.150000
      91.0000   0.00733777      77.4300     0.830000     0.150000
      99.0000   0.00537182      89.0100     0.830000     0.150000
      108.000   0.00395460      99.6600     0.830000     0.150000
      118.000   0.00291537      111.000     0.830000     0.150000
      129.000   0.00214458      118.800     0.830000     0.150000
      141.000   0.00156427      125.000     0.830000     0.150000
      154.000   0.00113299      133.200     0.830000     0.150000
      167.000  0.000835233      138.900     0.830000     0.150000
      181.000  0.000609030      143.900     0.830000     0.150000
      196.000  0.000439378      149.200     0.830000     0.150000
      211.000  0.000320947      153.800     0.830000     0.150000
      227.000  0.000231927      158.100     0.830000     0.150000
      243.000  0.000168961      161.900     0.830000     0.150000
      260.000  0.000121589      164.300     0.830000     0.150000
      277.000  8.78855e-05      165.600     0.830000     0.150000
      294.000  6.37158e-05      166.500     0.830000     0.150000
      311.000  4.63064e-05      167.200     0.830000     0.150000
      328.000  3.37232e-05      167.700     0.830000     0.150000
      345.000  2.45843e-05      167.900     0.830000     0.150000
      362.000  1.79423e-05      168.000     0.830000     0.150000
      380.000  1.28596e-05      168.000     0.830000     0.150000
      398.000  9.23464e-06      168.000     0.830000     0.150000
      416.000  6.63509e-06      168.000     0.830000     0.150000
      434.000  4.77177e-06      168.000     0.830000     0.150000
      452.000  3.43548e-06      168.000     0.830000     0.150000
      470.000  2.47619e-06      168.000     0.830000     0.150000
      488.000  1.78732e-06      168.000     0.830000     0.150000
      506.000  1.29090e-06      168.000     0.830000     0.150000
      524.000  9.34222e-07      168.300     0.830000     0.150000
      542.000  6.77128e-07      168.900     0.830000     0.150000
      560.000  4.92376e-07      170.500     0.830000     0.150000
      578.000  3.59931e-07      173.500     0.830000     0.150000
      597.000  2.60745e-07      178.200     0.830000     0.150000
      616.000  1.91167e-07      184.600     0.830000     0.150000
      636.000  1.39748e-07      193.000     0.830000     0.150000
      657.000  1.02443e-07      203.600     0.830000     0.150000
      680.000  7.43943e-08      216.800     0.830000     0.150000
      704.000  5.45374e-08      231.800     0.830000     0.150000
      730.000  3.99112e-08      248.500     0.830000     0.150000
      758.000  2.92327e-08      266.600     0.830000     0.150000
      789.000  2.12485e-08      286.100     0.830000     0.150000
      822.000  1.55144e-08      306.000     0.830000     0.150000
      858.000  1.12805e-08      326.400     0.830000     0.150000
      897.000  8.17765e-09      347.000     0.830000     0.150000
      938.000  5.96299e-09      366.900     0.830000     0.150000
      982.000  4.33753e-09      386.700     0.830000     0.150000
      1029.00  3.14927e-09      406.300     0.830000     0.150000
      1079.00  2.28374e-09      425.700     0.830000     0.150000
      1132.00  1.65507e-09      444.900     0.830000     0.150000
      1188.00  1.19812e-09      463.800     0.830000     0.150000
      1247.00  8.67407e-10      482.400     0.830000     0.150000
      1309.00  6.27387e-10      500.700     0.830000     0.150000
      1374.00  4.53886e-10      518.700     0.830000     0.150000
      1442.00  3.28251e-10      536.400     0.830000     0.150000
      1513.00  2.37355e-10      553.600     0.830000     0.150000
      1587.00  1.71626e-10      570.500     0.830000     0.150000
      1664.00  1.24056e-10      587.000     0.830000     0.150000
      1744.00  8.97311e-11      603.200     0.830000     0.150000
      1827.00  6.48902e-11      619.100     0.830000     0.150000
      1913.00  4.69085e-11      634.800     0.830000     0.150000
      2002.00  3.39107e-11      650.500     0.830000     0.150000
      2095.00  2.44362e-11      666.500     0.830000     0.150000
      2191.00  1.76067e-11      682.800     0.830000     0.150000
      2290.00  1.26918e-11      699.100     0.830000     0.150000
      2392.00  9.14878e-12      714.200     0.830000     0.150000
      2497.00  6.59166e-12      727.200     0.830000     0.150000
      2605.00  4.74315e-12      737.500     0.830000     0.150000
      2715.00  3.41475e-12      744.400     0.830000     0.150000
      2827.00  2.45645e-12      748.200     0.830000     0.150000
      2941.00  1.76462e-12      749.900     0.830000     0.150000
      3056.00  1.26721e-12      750.200     0.830000     0.150000
      3144.00  9.86627e-13      750.000     0.830000     0.150000
